T (K)	P (kPa)	uP (kPa)
104	0.1223	0.0301
104	0.1223	0.0301
104.12	0.12399	
104.92	0.142522	
105	0.1457	0.0301
105	0.1457	0.0301
105.02	0.14532	
105.08	0.1467	
105.24	0.150921	
105.43	0.155854	
105.63	0.16132	
106.33	0.181718	
106.89	0.19945	
107	0.2047	0.0301
107	0.2047	0.0301
107.08	0.20585	
107.521	0.221448	
108.571	0.26265	
109.211	0.291043	
109.311	0.29598	
109.451	0.30264	
109.921	0.325707	
110	0.332	0.03
110	0.332	0.03
110.091	0.33464	
110.711	0.368503	
110.741	0.370103	
111.111	0.391434	
111.191	0.39597	
111.411	0.410233	
112.622	0.49156	
112.902	0.512758	
113.257	0.533289	0.0667
114.362	0.633548	
114.442	0.64128	
114.856	0.615949	0.0161
115	0.698	0.031
115	0.698	0.031
115.455	0.6666	0.0133
115.762	0.772603	
116.422	0.846064	
117.062	0.924324	
117.523	0.98259	
118.054	0.937256	0.0193
118.353	1.1999	0.12
119.203	1.2279	
119.433	1.2666	
119.93	1.33749	0.0507
119.933	1.35056	
119.953	1.35389	
120	1.369	0.031
120	1.369	0.031
120.013	1.37	0.2
120.023	1.36682	
121.713	1.69146	
122.313	1.82145	
123.133	2.0153	
123.46	2.104	0.107
124.363	2.33581	
124.643	2.41193	
124.813	2.46113	
125	2.528	0.032
125	2.528	0.032
125.254	2.59312	
125.294	2.68	0.21
125.374	2.62978	
125.804	2.76377	
127.264	3.2624	
128.546	3.784	0.112
129.914	4.36764	
129.994	4.4023	
130	4.426	0.033
131.554	5.19691	
131.691	5.23957	0.0371
132.151	5.49288	0.0376
133.134	6.1115	
133.151	6.0795	0.0388
134.084	6.72878	
134.124	6.75144	
134.152	6.71945	0.0401
134.884	7.28473	
135	7.394	0.035
135.152	7.42606	0.0415
135.504	7.74203	
135.921	8.089	0.125
136.153	8.19933	0.0431
136.194	8.27665	
136.644	8.64196	
137.064	8.99526	
137.154	9.02592	0.0447
137.234	9.14191	
138.155	9.91918	0.0465
138.314	10.1192	
139.155	10.8924	0.0485
140	11.853	0.038
140.006	11.9	
140.014	11.8	0.25
140.156	11.9457	0.0506
140.941	12.87	0.14
141.157	13.0789	0.0528
141.379	13.3344	0.101
141.794	13.8589	
142.157	14.3055	0.0553
143.098	15.5454	0.0578
143.158	15.6254	0.0579
144.159	17.0386	0.0607
144.394	17.3439	
144.934	18.19	0.31
144.934	18.24	0.31
145	18.313	0.045
145.16	18.5451	0.0638
145.394	18.8624	
145.549	19.152	0.161
146.161	20.1583	0.067
147.162	21.8782	0.0704
147.624	22.6248	
147.874	23.0914	
147.884	23.1088	
147.902	23.1981	0.0499
147.934	23.1914	
148.162	23.7047	0.0741
149.163	25.6512	0.078
149.381	26.0304	0.0179
149.634	26.5205	
150	27.38	0.055
150	27.381	0.055
150.014	27.6	2
150.014	27.32	0.4
150.014	27.41	0.4
150.164	27.7177	0.0821
151.017	29.564	0.195
151.165	29.9175	0.0865
151.914	31.5854	
152.146	32.1974	0.0911
152.166	32.2507	0.0912
153.167	34.7305	0.0961
154.168	37.3703	0.101
154.939	39.4901	0.0662
155	39.757	0.071
155.169	40.17	0.107
156.133	43.0398	0.023
156.17	43.1298	0.113
156.18	43.162	0.237
157.171	46.2629	0.119
157.224	46.3495	
158.172	49.5826	0.126
158.874	51.9304	
159.172	53.089	0.133
159.624	54.6155	
159.766	55.2637	0.0267
160	56.232	0.096
160.014	56.8	2
160.014	56.3	0.78
160.023	56.5	
160.173	56.8753	0.14
161.174	60.715	0.148
161.394	61.783	0.147
161.404	61.68	
161.574	62.1789	
161.645	62.578	0.299
162.175	64.8347	0.156
162.846	67.7544	0.162
163.176	69.1676	0.165
163.627	71.116	0.0315
163.994	72.6474	
165	77.69	0.129
165.142	78.186	0.348
166.648	85.8942	0.0359
167.782	91.859	0.392
168.341	95.2455	0.122
169.068	99.3775	0.0399
169.069	99.3583	0.0359
169.072	99.3775	0.0399
169.075	99.3775	0.0399
169.181	101.325	5.78
169.281	101.325	2.53
169.281	101.325	1.52
169.281	101.325	2.53
169.459	101.325	1.01
169.462	101.325	2.53
169.503	101.685	
169.523	101.788	
169.523	101.818	
169.739	103.388	0.0411
169.741	103.384	0.0411
169.745	103.384	0.0411
170	105.083	0.171
170.013	105.7	2
170.032	105.1	
170.202	105.951	0.133
170.381	107.11	0.437
172	117.927	0.192
172.48	121.01	0.0464
173.285	126.496	0.153
174.633	136.109	
175.852	145.508	
176	147.244	0.237
179.813	179.828	0.0641
180	181.84	0.291
180	181.845	0.291
180.012	182.8	2.1
182.332	205.216	
184.009	221.958	0.0767
185	233.438	0.371
188.612	276.608	0.0931
190	295.435	0.467
194.695	364.77	5.8
195	369.038	0.581
196.649	395.755	0.129
198.161	422.7	0.24
200	455.528	0.716
200.011	454.341	0.405
200.011	454.3	
200.011	455.5	5.39
203.041	515.4	1.3
203.161	518.34	0.28
203.865	532.868	1.28
204.283	540.863	0.172
205	556.177	0.872
210	672.347	1.05
210	672.347	1.05
212.236	730.148	1.38
212.696	739.672	6.55
213.196	759.938	10.4
213.658	767.821	0.241
215	805.377	1.26
218.159	900.06	0.35
219.659	945.73	
220	956.649	1.49
221.04	990.351	1.51
223.37	1068.79	0.331
224.039	1094.2	1.4
225	1127.58	1.76
226.148	1173.86	10.8
227.058	1207.83	
229.898	1317.03	11.8
230	1319.61	2.06
231.558	1378.02	9.12
231.658	1388.22	
232.113	1409.13	1.72
233.138	1450.14	0.445
233.158	1454.38	0.48
233.182	1448.95	15.2
233.73	1476	5
235	1534.24	2.39
236.657	1610.64	
238.007	1675.4	1.5
238.157	1682.2	2.1
238.177	1681	1
239.507	1748	1
240	1773.03	2.76
240	1773.03	2.76
240.007	1770	1
242.057	1883.85	
242.584	1910.08	1.97
243.08	1932.3	6.4
243.096	1931.41	0.59
243.156	1937.02	2.24
244.756	2024	1
245	2037.55	3.17
245.486	2062	1
247.056	2159.96	
248.155	2218.69	2.42
248.155	2220.72	0.64
249.355	2291	1
249.693	2308.69	0.703
250	2329.51	3.62
250.135	2339.87	13.7
250.165	2340.1	1.9
250.505	2362.42	13.7
251.655	2432.53	
252.954	2522.99	13.2
253.096	2523.5	2.3
253.154	2528.86	2.61
253.22	2534.8	8.3
253.284	2531	2
253.466	2533.1	30.4
254	2584.14	4.02
255.283	2667.72	0.811
256.22	2732	16
257	2788.01	4.33
258.148	2857.36	287
258.153	2869.6	2.82
258.59	2903	16
260	3003.48	4.67
260.003	3001.25	1.01
260.003	3001	1
260.66	3039.8	30.4
261.02	3083	17
261.907	3143.84	0.953
262.473	3192.07	15.7
262.677	3205.98	
262.999	3231.08	5.02
263.072	3231.25	4.05
263.122	3236	2
263.132	3247.47	326
263.152	3243.12	3.05
263.152	3236.32	10.1
263.152	3244.71	0.85
263.22	3247.5	10.6
263.48	3272	17
263.632	3277	2
264.852	3374	2
265.556	3437.25	2.73
265.672	3440	2
265.933	3447.08	50.7
265.94	3470	17
265.999	3471.33	5.39
266.101	3483.68	
266.101	3483.74	
266.101	3483.76	
266.101	3483.83	
266.132	3480	2
266.502	3506	2
266.935	3546.4	40.5
267.846	3623.07	1.1
268.105	3637.57	366
268.13	3648.5	22.4
268.151	3651.96	3.3
268.37	3671	17
268.999	3724.92	5.78
269.401	3753.99	17.7
269.671	3778	2
270.1	3825.82	
270.511	3853	2
270.85	3891	18
270.999	3901.73	6.06
270.999	3901.75	6.06
271.514	4053	407
272.501	4053	50.7
272.71	4050.15	19.6
272.998	4085.09	6.34
273.058	4098.6	413
273.09	4080.97	3.05
273.099	4099.03	
273.099	4099.02	
273.14	4096.06	4.36
273.149	4099.31	3.58
273.15	4092	2
273.15	4094	16
273.18	4102	13.2
273.22	4096.57	4.26
273.29	4113	18
273.3	4113.8	
273.598	4135.37	1.25
273.95	4167.83	19.6
274.67	4241.7	2.1
274.998	4275.29	6.64
275.68	4339	18
275.997	4373.07	6.79
276.098	4387.65	
276.997	4472.71	6.94
277.303	4494.64	1.36
277.976	4600.15	462
277.996	4574.3	7.1
278.147	4589.8	3.9
278.149	4589.97	0.99
278.16	4588	19
278.269	4592	2
278.36	4611.2	26.3
278.369	4603	2
278.996	4677.91	7.26
279.096	4693.23	
279.146	4693.67	3.95
279.613	4730.59	1.43
279.995	4783.66	7.43
279.995	4783.67	7.43
280.146	4799.73	4.02
280.199	4795	2
280.541	4827.94	1.46
280.695	4859.03	7.54
280.695	4859.04	7.54
280.695	4859.04	7.54
280.695	4859.04	7.54
280.98	4891	19
280.985	4880.01	3.45
281.095	4907.46	
281.095	4907.47	
281.145	4908.13	4.08
281.195	4913.61	7.63
281.195	4913.61	7.63
281.445	4940.46	
281.445	4940.55	
281.594	4957.71	7.7
281.594	4957.73	7.7
281.644	4963.31	4.13
281.674	5066.2	509
281.744	4973.65	
281.744	4973.66	
281.744	4973.66	
281.744	4973.69	
281.744	4973.69	
281.744	4973.73	
281.744	4973.77	
281.744	4973.77	
281.844	4985.53	7.74
281.844	4985.54	7.74
281.994	5002.3	7.77
281.994	5002.32	7.77
281.998	5002.2	2.5
282.044	5007.18	
282.044	5007.2	
282.044	5007.24	
282.078	5010.4	2.6
282.094	5018.41	
282.094	5013.55	7.78
282.094	5013.56	7.78
282.144	5019.15	4.18
282.188	5017	2
282.194	5024.81	4.19
282.194	5024.79	7.8
282.194	5024.82	7.8
282.244	5030.46	4.19
282.244	5029.67	
282.244	5030.45	7.81
282.244	5030.48	7.81
282.248	5029.8	2.5
282.294	5036.12	4.19
282.294	5036.08	7.82
282.294	5036.13	7.82
282.319	5038.91	7.82
282.344	5041.97	4.2
282.344	5064.22	49.6
282.344	5061.18	49.6
282.344	5074.47	68.9
282.344	5042	3
282.344	5033.6	80
282.344	5040.3	3.9
282.344	5040.3	22
282.344	5055	5
282.344	5055	5.05
282.344	5041.8	2.3
282.344	5060	300
282.344	5070	300
282.344	5060	140
282.344	5070	140
282.344	5020	100
